FASENS
POLYTEC und GAIN_PHASE Messungen
Modenprofilaufnahme
5.5.1992
17:1
tf
2
um/V
Ampl
ZE, Abgriff: optisch
in Stahltr. eingekl.
Si-Membran+ZnO-Schicht
M7 - 2/3
    30000
    50000
     5000
    55000
   10.0352
 0.000128
    290.0
MLIN
 9.5
   50
 1000000
+1.00000000E-003
          5000.00     0.005299985
          5124.69     0.005806327
          5249.38     0.005805194
          5374.06     0.005823851
          5498.75     0.006145537
          5623.44     0.006971836
          5748.13     0.007397652
          5872.82     0.008607268
          5997.51     0.008546948
          6122.19     0.009495378
          6246.88     0.010139465
          6371.57     0.012482882
          6496.26     0.014094234
          6620.95     0.017087460
          6745.64     0.021969080
          6870.32     0.031287193
          6995.01     0.049059391
          7119.70     0.134462357
          7244.39     0.300727844
          7369.08     0.161281586
          7493.77     0.045609951
          7618.45     0.029997587
          7743.14     0.020900488
          7867.83     0.016640902
          7992.52     0.013603926
          8117.21     0.011614561
          8241.90     0.009724736
          8366.58     0.008603215
          8491.27     0.007848024
          8615.96     0.007401884
          8740.65     0.006343484
          8865.34     0.005818009
          8990.02     0.005771041
          9114.71     0.005568683
          9239.40     0.004751980
          9364.09     0.004615486
          9488.78     0.004245758
          9613.47     0.004173517
          9738.15     0.003946722
          9862.84     0.004422426
          9987.53     0.003291041
         10112.22     0.003267705
         10236.91     0.003102809
         10361.60     0.002921104
         10486.28     0.002867460
         10610.97     0.002656490
         10735.66     0.002569586
         10860.35     0.002586931
         10985.04     0.002153605
         11109.73     0.002080262
         11234.41     0.002450019
         11359.10     0.004028559
         11483.79     0.003523439
         11608.48     0.003080368
         11733.17     0.002836019
         11857.86     0.002630204
         11982.54     0.002396017
         12107.23     0.002489418
         12231.92     0.002464503
         12356.61     0.002526700
         12481.30     0.002219439
         12605.99     0.002328545
         12730.67     0.002275318
         12855.36     0.002082914
         12980.05     0.002014250
         13104.74     0.002029270
         13229.43     0.002080828
         13354.11     0.002137572
         13478.80     0.002225369
         13603.49     0.002270490
         13728.18     0.002255052
         13852.87     0.002345055
         13977.56     0.002408475
         14102.24     0.002401799
         14226.93     0.002430469
         14351.62     0.002793968
         14476.31     0.003260225
         14601.00     0.003583610
         14725.69     0.003484696
         14850.37     0.003837198
         14975.06     0.006147981
         15099.75     0.014592767
         15224.44     0.032143593
         15349.13     0.009604335
         15473.82     0.011092305
         15598.50     0.004692733
         15723.19     0.001964211
         15847.88     0.001438946
         15972.57     0.000869133
         16097.26     0.000667073
         16221.95     0.000305660
         16346.63     0.000314008
         16471.32     0.000202835
         16596.01     0.000176685
         16720.70     0.000177659
         16845.39     0.000168929
         16970.07     0.000303067
         17094.76     0.000297546
         17219.45     0.000272736
         17344.14     0.000309680
         17468.83     0.000275657
         17593.52     0.000423230
         17718.20     0.000333071
         17842.89     0.000376873
         17967.58     0.000449516
         18092.27     0.000412881
         18216.96     0.000395488
         18341.65     0.000451650
         18466.33     0.000408810
         18591.02     0.000678614
         18715.71     0.000537090
         18840.40     0.000382062
         18965.09     0.000434190
         19089.78     0.000243561
         19214.46     0.000343174
         19339.15     0.000318490
         19463.84     0.000381026
         19588.53     0.000300109
         19713.22     0.000343885
         19837.91     0.000328552
         19962.59     0.000500321
         20087.28     0.000513777
         20211.97     0.000466026
         20336.66     0.000349604
         20461.35     0.000325795
         20586.03     0.000496231
         20710.72     0.000536814
         20835.41     0.000473641
         20960.10     0.000340723
         21084.79     0.000456747
         21209.48     0.000431094
         21334.16     0.000469118
         21458.85     0.000422709
         21583.54     0.000387717
         21708.23     0.000485498
         21832.92     0.000487808
         21957.61     0.000398591
         22082.29     0.000430707
         22206.98     0.000343535
         22331.67     0.000290833
         22456.36     0.000514217
         22581.05     0.000476975
         22705.74     0.000408288
         22830.42     0.000386193
         22955.11     0.000414643
         23079.80     0.000619888
         23204.49     0.000457186
         23329.18     0.000358887
         23453.87     0.000454597
         23578.55     0.000566132
         23703.24     0.000418633
         23827.93     0.000378814
         23952.62     0.000497714
         24077.31     0.000452720
         24202.00     0.000456404
         24326.68     0.000438675
         24451.37     0.000492454
         24576.06     0.000465736
         24700.75     0.000396166
         24825.44     0.000468805
         24950.12     0.000557631
         25074.81     0.000484146
         25199.50     0.000531942
         25324.19     0.000494033
         25448.88     0.000503391
         25573.57     0.000458948
         25698.25     0.000433695
         25822.94     0.000600561
         25947.63     0.000498027
         26072.32     0.000462390
         26197.01     0.000454448
         26321.70     0.000403959
         26446.38     0.000505581
         26571.07     0.000496157
         26695.76     0.000507355
         26820.45     0.000618912
         26945.14     0.000587650
         27069.83     0.000701353
         27194.51     0.000949964
         27319.20     0.000920787
         27443.89     0.001506165
         27568.58     0.002178222
         27693.27     0.003746361
         27817.96     0.006020963
         27942.64     0.004626334
         28067.33     0.001168042
         28192.02     0.002281308
         28316.71     0.002382427
         28441.40     0.006003618
         28566.08     0.006182373
         28690.77     0.002283871
         28815.46     0.001212463
         28940.15     0.000476409
         29064.84     0.000736140
         29189.53     0.000310097
         29314.21     0.000259019
         29438.90     0.000229856
         29563.59     0.000126474
         29688.28     0.000154132
         29812.97     0.000108199
         29937.66     0.000129391
         30062.34     0.000150463
         30187.03     0.000199018
         30311.72     0.000144372
         30436.41     0.000089270
         30561.10     0.000100754
         30685.79     0.000092953
         30810.47     0.000090849
         30935.16     0.000123788
         31059.85     0.000162322
         31184.54     0.000117236
         31309.23     0.000098007
         31433.92     0.000075906
         31558.60     0.000116272
         31683.29     0.000113636
         31807.98     0.000103964
         31932.67     0.000145145
         32057.36     0.000125656
         32182.04     0.000141190
         32306.73     0.000198983
         32431.42     0.000162167
         32556.11     0.000170030
         32680.80     0.000155313
         32805.49     0.000211138
         32930.17     0.000201406
         33054.86     0.000194518
         33179.55     0.000205671
         33304.24     0.000242250
         33428.93     0.000214646
         33553.62     0.000248764
         33678.30     0.000293817
         33802.99     0.000352826
         33927.68     0.000348698
         34052.37     0.000493504
         34177.06     0.000560343
         34301.75     0.001210362
         34426.43     0.002486348
         34551.12     0.002847522
         34675.81     0.001546115
         34800.50     0.002535999
         34925.19     0.001741976
         35049.88     0.000705063
         35174.56     0.000276502
         35299.25     0.000319727
         35423.94     0.000193059
         35548.63     0.000165295
         35673.32     0.000138424
         35798.00     0.000098086
         35922.69     0.000141403
         36047.38     0.000087238
         36172.07     0.000073404
         36296.76     0.000088684
         36421.45     0.000074607
         36546.13     0.000070889
         36670.82     0.000107875
         36795.51     0.000075484
         36920.20     0.000055545
         37044.89     0.000073222
         37169.58     0.000097164
         37294.26     0.000056412
         37418.95     0.000059729
         37543.64     0.000080789
         37668.33     0.000085403
         37793.02     0.000081597
         37917.71     0.000123911
         38042.39     0.000070261
         38167.08     0.000097535
         38291.77     0.000133943
         38416.46     0.000147380
         38541.15     0.000090944
         38665.84     0.000107373
         38790.52     0.000101622
         38915.21     0.000118579
         39039.90     0.000101000
         39164.59     0.000110162
         39289.28     0.000124507
         39413.97     0.000177033
         39538.65     0.000132512
         39663.34     0.000124363
         39788.03     0.000158964
         39912.72     0.000122935
         40037.41     0.000102551
         40162.09     0.000148507
         40286.78     0.000141842
         40411.47     0.000145871
         40536.16     0.000159139
         40660.85     0.000145143
         40785.54     0.000162093
         40910.22     0.000119199
         41034.91     0.000145292
         41159.60     0.000161193
         41284.29     0.000196693
         41408.98     0.000162287
         41533.67     0.000141099
         41658.35     0.000140000
         41783.04     0.000115685
         41907.73     0.000177396
         42032.42     0.000183132
         42157.11     0.000174113
         42281.80     0.000164371
         42406.48     0.000221748
         42531.17     0.000215186
         42655.86     0.000185398
         42780.55     0.000210756
         42905.24     0.000162182
         43029.93     0.000218280
         43154.61     0.000353299
         43279.30     0.000239525
         43403.99     0.000340633
         43528.68     0.000266552
         43653.37     0.000346012
         43778.05     0.000281882
         43902.74     0.000367854
         44027.43     0.000336424
         44152.12     0.000343733
         44276.81     0.000424370
         44401.50     0.000469662
         44526.18     0.000554077
         44650.87     0.000613078
         44775.56     0.000690170
         44900.25     0.000932217
         45024.94     0.000931315
         45149.63     0.001512855
         45274.31     0.001746297
         45399.00     0.002333730
         45523.69     0.003185183
         45648.38     0.003862649
         45773.07     0.005989254
         45897.76     0.009991407
         46022.44     0.020415306
         46147.13     0.020511150
         46271.82     0.007771790
         46396.51     0.004807472
         46521.20     0.003426820
         46645.89     0.002325773
         46770.57     0.002056539
         46895.26     0.001493126
         47019.95     0.001163796
         47144.64     0.001034126
         47269.33     0.000836417
         47394.01     0.000681251
         47518.70     0.000612065
         47643.39     0.000684813
         47768.08     0.000556268
         47892.77     0.000471186
         48017.46     0.000495791
         48142.14     0.000423789
         48266.83     0.000415199
         48391.52     0.000403255
         48516.21     0.000384368
         48640.90     0.000323709
         48765.59     0.000513300
         48890.27     0.000326958
         49014.96     0.000278424
         49139.65     0.000236278
         49264.34     0.000206893
         49389.03     0.000228940
         49513.72     0.000192316
         49638.40     0.000266440
         49763.09     0.000187527
         49887.78     0.000147371
         50012.47     0.000161242
         50137.16     0.000120382
         50261.85     0.000120830
         50386.53     0.000137404
         50511.22     0.000164796
         50635.91     0.000133844
         50760.60     0.000114161
         50885.29     0.000137288
         51009.98     0.000113212
         51134.66     0.000140218
         51259.35     0.000136264
         51384.04     0.000133483
         51508.73     0.000124378
         51633.42     0.000158956
         51758.10     0.000156630
         51882.79     0.000149021
         52007.48     0.000126356
         52132.17     0.000100496
         52256.86     0.000098767
         52381.55     0.000093205
         52506.23     0.000099909
         52630.92     0.000104776
         52755.61     0.000123510
         52880.30     0.000108705
         53004.99     0.000123020
         53129.68     0.000098756
         53254.36     0.000120021
         53379.05     0.000085615
         53503.74     0.000081135
         53628.43     0.000103788
         53753.12     0.000095773
         53877.81     0.000102930
         54002.49     0.000115642
         54127.18     0.000108438
         54251.87     0.000073633
         54376.56     0.000087780
         54501.25     0.000101646
         54625.94     0.000077509
         54750.62     0.000085598
         54875.31     0.000121450
