FASENS
POLYTEC und GAIN_PHASE Messungen
Modenprofilaufnahme
5.5.1992
17:1
tf
2
um/V
Ampl
ZE, Abgriff: optisch
in Stahltr. eingekl.
Si-Membran+ZnO-Schicht
M7 - 2/3
    30000
    50000
     5000
    55000
   10.0352
 0.000128
    290.0
MLIN
 9.5
   50
 1000000
+1.00000000E-003
          5000.00     0.001219988
          5124.69     0.001074240
          5249.38     0.001165584
          5374.06     0.001297086
          5498.75     0.001267537
          5623.44     0.001299560
          5748.13     0.001395777
          5872.82     0.001683712
          5997.51     0.001827061
          6122.19     0.001887977
          6246.88     0.002245367
          6371.57     0.002344877
          6496.26     0.002730072
          6620.95     0.003260612
          6745.64     0.004235923
          6870.32     0.005837023
          6995.01     0.009526730
          7119.70     0.025966883
          7244.39     0.057657719
          7369.08     0.033125877
          7493.77     0.008927107
          7618.45     0.005484164
          7743.14     0.004253924
          7867.83     0.003332496
          7992.52     0.003043711
          8117.21     0.002658218
          8241.90     0.002305239
          8366.58     0.002366573
          8491.27     0.001784995
          8615.96     0.001848519
          8740.65     0.001480728
          8865.34     0.001394317
          8990.02     0.001210794
          9114.71     0.001440659
          9239.40     0.001390710
          9364.09     0.001209512
          9488.78     0.001084477
          9613.47     0.001184851
          9738.15     0.001189575
          9862.84     0.001123741
          9987.53     0.001204133
         10112.22     0.001007721
         10236.91     0.000887841
         10361.60     0.000941336
         10486.28     0.001049757
         10610.97     0.000871927
         10735.66     0.000859812
         10860.35     0.000818580
         10985.04     0.000811003
         11109.73     0.000733137
         11234.41     0.000672631
         11359.10     0.001080006
         11483.79     0.000890560
         11608.48     0.000803508
         11733.17     0.000810876
         11857.86     0.000750437
         11982.54     0.000746146
         12107.23     0.000735633
         12231.92     0.000928260
         12356.61     0.000702165
         12481.30     0.000663795
         12605.99     0.000736549
         12730.67     0.000757821
         12855.36     0.000766821
         12980.05     0.000719793
         13104.74     0.000710055
         13229.43     0.000699230
         13354.11     0.000699654
         13478.80     0.000935018
         13603.49     0.000769615
         13728.18     0.000793427
         13852.87     0.000755943
         13977.56     0.000804275
         14102.24     0.000850283
         14226.93     0.000833280
         14351.62     0.001230717
         14476.31     0.000955403
         14601.00     0.001362100
         14725.69     0.000882410
         14850.37     0.001322806
         14975.06     0.001709834
         15099.75     0.004068136
         15224.44     0.008285642
         15349.13     0.003118962
         15473.82     0.002922744
         15598.50     0.001034796
         15723.19     0.000707991
         15847.88     0.000287633
         15972.57     0.000223242
         16097.26     0.000158770
         16221.95     0.000143887
         16346.63     0.000170318
         16471.32     0.000199715
         16596.01     0.000280887
         16720.70     0.000203758
         16845.39     0.000426624
         16970.07     0.000318944
         17094.76     0.000244945
         17219.45     0.000319406
         17344.14     0.000226319
         17468.83     0.000252832
         17593.52     0.000308458
         17718.20     0.000433389
         17842.89     0.000311475
         17967.58     0.000308145
         18092.27     0.000325873
         18216.96     0.000333764
         18341.65     0.000305474
         18466.33     0.000375118
         18591.02     0.000281993
         18715.71     0.000373516
         18840.40     0.000263773
         18965.09     0.000466701
         19089.78     0.000479300
         19214.46     0.000436492
         19339.15     0.000269555
         19463.84     0.000353403
         19588.53     0.000278194
         19713.22     0.000317480
         19837.91     0.000347033
         19962.59     0.000360172
         20087.28     0.000329472
         20211.97     0.000352018
         20336.66     0.000398822
         20461.35     0.000326514
         20586.03     0.000320885
         20710.72     0.000337522
         20835.41     0.000266500
         20960.10     0.000419650
         21084.79     0.000314504
         21209.48     0.000364099
         21334.16     0.000324078
         21458.85     0.000288755
         21583.54     0.000337511
         21708.23     0.000371199
         21832.92     0.000411958
         21957.61     0.000342973
         22082.29     0.000388093
         22206.98     0.000378657
         22331.67     0.000366163
         22456.36     0.000321545
         22581.05     0.000373770
         22705.74     0.000357959
         22830.42     0.000287641
         22955.11     0.000365742
         23079.80     0.000288989
         23204.49     0.000313420
         23329.18     0.000320271
         23453.87     0.000450842
         23578.55     0.000377562
         23703.24     0.000311971
         23827.93     0.000342429
         23952.62     0.000354704
         24077.31     0.000418741
         24202.00     0.000400033
         24326.68     0.000463165
         24451.37     0.000410113
         24576.06     0.000319678
         24700.75     0.000438780
         24825.44     0.000479303
         24950.12     0.000387307
         25074.81     0.000380378
         25199.50     0.000450954
         25324.19     0.000426192
         25448.88     0.000434216
         25573.57     0.000439513
         25698.25     0.000607088
         25822.94     0.000515059
         25947.63     0.000619642
         26072.32     0.000554629
         26197.01     0.000490315
         26321.70     0.000553153
         26446.38     0.000624835
         26571.07     0.000640117
         26695.76     0.000648417
         26820.45     0.000602894
         26945.14     0.000639893
         27069.83     0.000906430
         27194.51     0.000982210
         27319.20     0.000998631
         27443.89     0.001611099
         27568.58     0.001801386
         27693.27     0.002515525
         27817.96     0.003246993
         27942.64     0.001652256
         28067.33     0.003832638
         28192.02     0.005517840
         28316.71     0.006754935
         28441.40     0.010053992
         28566.08     0.011147857
         28690.77     0.004791856
         28815.46     0.002498060
         28940.15     0.001262158
         29064.84     0.001622349
         29189.53     0.000998437
         29314.21     0.000540130
         29438.90     0.000416059
         29563.59     0.000492662
         29688.28     0.000368103
         29812.97     0.000281125
         29937.66     0.000202930
         30062.34     0.000202786
         30187.03     0.000222914
         30311.72     0.000207044
         30436.41     0.000247389
         30561.10     0.000234623
         30685.79     0.000173226
         30810.47     0.000156671
         30935.16     0.000180302
         31059.85     0.000165954
         31184.54     0.000121368
         31309.23     0.000113189
         31433.92     0.000125468
         31558.60     0.000094152
         31683.29     0.000114980
         31807.98     0.000156643
         31932.67     0.000086569
         32057.36     0.000116907
         32182.04     0.000087907
         32306.73     0.000130123
         32431.42     0.000084679
         32556.11     0.000086900
         32680.80     0.000052343
         32805.49     0.000134954
         32930.17     0.000099956
         33054.86     0.000087791
         33179.55     0.000173172
         33304.24     0.000092456
         33428.93     0.000091975
         33553.62     0.000108621
         33678.30     0.000122573
         33802.99     0.000151617
         33927.68     0.000184499
         34052.37     0.000162184
         34177.06     0.000221532
         34301.75     0.000255968
         34426.43     0.000576109
         34551.12     0.000612430
         34675.81     0.000343475
         34800.50     0.000657894
         34925.19     0.000504874
         35049.88     0.000203958
         35174.56     0.000080516
         35299.25     0.000096792
         35423.94     0.000099316
         35548.63     0.000075727
         35673.32     0.000071131
         35798.00     0.000068112
         35922.69     0.000104059
         36047.38     0.000063611
         36172.07     0.000064787
         36296.76     0.000091792
         36421.45     0.000084099
         36546.13     0.000082227
         36670.82     0.000128809
         36795.51     0.000107045
         36920.20     0.000085711
         37044.89     0.000072161
         37169.58     0.000104608
         37294.26     0.000102002
         37418.95     0.000063619
         37543.64     0.000075924
         37668.33     0.000127193
         37793.02     0.000114715
         37917.71     0.000104442
         38042.39     0.000128487
         38167.08     0.000095391
         38291.77     0.000105279
         38416.46     0.000124548
         38541.15     0.000132881
         38665.84     0.000107086
         38790.52     0.000131171
         38915.21     0.000112131
         39039.90     0.000110196
         39164.59     0.000113866
         39289.28     0.000141408
         39413.97     0.000101469
         39538.65     0.000090108
         39663.34     0.000125643
         39788.03     0.000113074
         39912.72     0.000087392
         40037.41     0.000121223
         40162.09     0.000151202
         40286.78     0.000127064
         40411.47     0.000117233
         40536.16     0.000122247
         40660.85     0.000107515
         40785.54     0.000122981
         40910.22     0.000116113
         41034.91     0.000140777
         41159.60     0.000125734
         41284.29     0.000159454
         41408.98     0.000161676
         41533.67     0.000121265
         41658.35     0.000291675
         41783.04     0.000163198
         41907.73     0.000170803
         42032.42     0.000177782
         42157.11     0.000256963
         42281.80     0.000225062
         42406.48     0.000154993
         42531.17     0.000230087
         42655.86     0.000171011
         42780.55     0.000192363
         42905.24     0.000184219
         43029.93     0.000218503
         43154.61     0.000194203
         43279.30     0.000149217
         43403.99     0.000215448
         43528.68     0.000255547
         43653.37     0.000261497
         43778.05     0.000172250
         43902.74     0.000238581
         44027.43     0.000233635
         44152.12     0.000283256
         44276.81     0.000300970
         44401.50     0.000305098
         44526.18     0.000341814
         44650.87     0.000324260
         44775.56     0.000315823
         44900.25     0.000409409
         45024.94     0.000492044
         45149.63     0.000590473
         45274.31     0.001109540
         45399.00     0.001582950
         45523.69     0.002098292
         45648.38     0.003095001
         45773.07     0.005306721
         45897.76     0.010000587
         46022.44     0.017981529
         46147.13     0.017879963
         46271.82     0.005640209
         46396.51     0.003666073
         46521.20     0.002707034
         46645.89     0.001729161
         46770.57     0.001228213
         46895.26     0.000901662
         47019.95     0.000791006
         47144.64     0.000798889
         47269.33     0.000775911
         47394.01     0.000406507
         47518.70     0.000347100
         47643.39     0.000307046
         47768.08     0.000239920
         47892.77     0.000254817
         48017.46     0.000195369
         48142.14     0.000198036
         48266.83     0.000172226
         48391.52     0.000173828
         48516.21     0.000115217
         48640.90     0.000173653
         48765.59     0.000157066
         48890.27     0.000113767
         49014.96     0.000132406
         49139.65     0.000164459
         49264.34     0.000129849
         49389.03     0.000147572
         49513.72     0.000103730
         49638.40     0.000086470
         49763.09     0.000105330
         49887.78     0.000115540
         50012.47     0.000109586
         50137.16     0.000088916
         50261.85     0.000054065
         50386.53     0.000081098
         50511.22     0.000065571
         50635.91     0.000066568
         50760.60     0.000096697
         50885.29     0.000067977
         51009.98     0.000085040
         51134.66     0.000055701
         51259.35     0.000066742
         51384.04     0.000057548
         51508.73     0.000059159
         51633.42     0.000051127
         51758.10     0.000091736
         51882.79     0.000080621
         52007.48     0.000073100
         52132.17     0.000088537
         52256.86     0.000083323
         52381.55     0.000042979
         52506.23     0.000058684
         52630.92     0.000028753
         52755.61     0.000053942
         52880.30     0.000046339
         53004.99     0.000056480
         53129.68     0.000061109
         53254.36     0.000033157
         53379.05     0.000033436
         53503.74     0.000066826
         53628.43     0.000039133
         53753.12     0.000055212
         53877.81     0.000057683
         54002.49     0.000037974
         54127.18     0.000050070
         54251.87     0.000045888
         54376.56     0.000054566
         54501.25     0.000027416
         54625.94     0.000050332
         54750.62     0.000062767
         54875.31     0.000042913
