FASENS
POLYTEC und GAIN_PHASE Messungen
Modenprofilaufnahme
5.5.1992
17:1
tf
2
um/V
Ampl
ZE, Abgriff: optisch
in Stahltr. eingekl.
Si-Membran+ZnO-Schicht
M7 - 2/3
    30000
    50000
     5000
    55000
   10.0352
 0.000128
    290.0
MLIN
 9.5
   50
 1000000
+4.00000000E-002
          5000.00     0.006975412
          5124.69     0.007408559
          5249.38     0.008461356
          5374.06     0.008397102
          5498.75     0.008712769
          5623.44     0.009214520
          5748.13     0.010227442
          5872.82     0.011015773
          5997.51     0.012454748
          6122.19     0.013470054
          6246.88     0.015285969
          6371.57     0.017774105
          6496.26     0.018403292
          6620.95     0.023931980
          6745.64     0.029749155
          6870.32     0.041242599
          6995.01     0.070865631
          7119.70     0.191640854
          7244.39     0.392215729
          7369.08     0.206319809
          7493.77     0.062613487
          7618.45     0.036904812
          7743.14     0.028084517
          7867.83     0.020995140
          7992.52     0.017365932
          8117.21     0.015625715
          8241.90     0.013183236
          8366.58     0.011354804
          8491.27     0.010164499
          8615.96     0.009034038
          8740.65     0.008408189
          8865.34     0.007603824
          8990.02     0.007369816
          9114.71     0.006456077
          9239.40     0.006413937
          9364.09     0.005901039
          9488.78     0.005529106
          9613.47     0.005119264
          9738.15     0.005335808
          9862.84     0.004832864
          9987.53     0.004396021
         10112.22     0.004265308
         10236.91     0.003857553
         10361.60     0.003688037
         10486.28     0.003472626
         10610.97     0.003089130
         10735.66     0.002841562
         10860.35     0.002785653
         10985.04     0.002536446
         11109.73     0.002027422
         11234.41     0.003231764
         11359.10     0.005442441
         11483.79     0.004622400
         11608.48     0.003454655
         11733.17     0.003607005
         11857.86     0.002874702
         11982.54     0.003297985
         12107.23     0.002868772
         12231.92     0.002639621
         12356.61     0.002474040
         12481.30     0.002451867
         12605.99     0.002636164
         12730.67     0.002610952
         12855.36     0.002422005
         12980.05     0.002561033
         13104.74     0.002222985
         13229.43     0.002422869
         13354.11     0.002119511
         13478.80     0.002151728
         13603.49     0.002011716
         13728.18     0.002262682
         13852.87     0.001993239
         13977.56     0.002187252
         14102.24     0.002196223
         14226.93     0.002405316
         14351.62     0.002658010
         14476.31     0.003049344
         14601.00     0.003032625
         14725.69     0.002792865
         14850.37     0.003686935
         14975.06     0.005526602
         15099.75     0.010440946
         15224.44     0.022346258
         15349.13     0.006186903
         15473.82     0.009954691
         15598.50     0.003969908
         15723.19     0.001915723
         15847.88     0.000968501
         15972.57     0.000680916
         16097.26     0.000395373
         16221.95     0.000494689
         16346.63     0.000364043
         16471.32     0.000279874
         16596.01     0.000179650
         16720.70     0.000173604
         16845.39     0.000302896
         16970.07     0.000338908
         17094.76     0.000294439
         17219.45     0.000159193
         17344.14     0.000225969
         17468.83     0.000279922
         17593.52     0.000190409
         17718.20     0.000250589
         17842.89     0.000190295
         17967.58     0.000278208
         18092.27     0.000220302
         18216.96     0.000257134
         18341.65     0.000248544
         18466.33     0.000211069
         18591.02     0.000269953
         18715.71     0.000285193
         18840.40     0.000376079
         18965.09     0.000276811
         19089.78     0.000138644
         19214.46     0.000150565
         19339.15     0.000178007
         19463.84     0.000091547
         19588.53     0.000145562
         19713.22     0.000162136
         19837.91     0.000148069
         19962.59     0.000218624
         20087.28     0.000213062
         20211.97     0.000148427
         20336.66     0.000351150
         20461.35     0.000351354
         20586.03     0.000269085
         20710.72     0.000161882
         20835.41     0.000222977
         20960.10     0.000158671
         21084.79     0.000159739
         21209.48     0.000197584
         21334.16     0.000146404
         21458.85     0.000139583
         21583.54     0.000137122
         21708.23     0.000119289
         21832.92     0.000176849
         21957.61     0.000296541
         22082.29     0.000253174
         22206.98     0.000276890
         22331.67     0.000603326
         22456.36     0.000821844
         22581.05     0.000119495
         22705.74     0.000074462
         22830.42     0.000169789
         22955.11     0.000139017
         23079.80     0.000222448
         23204.49     0.000165034
         23329.18     0.000266813
         23453.87     0.000223061
         23578.55     0.000198465
         23703.24     0.000233049
         23827.93     0.000256568
         23952.62     0.000255376
         24077.31     0.000281442
         24202.00     0.000345323
         24326.68     0.000315033
         24451.37     0.000348061
         24576.06     0.000329450
         24700.75     0.000444781
         24825.44     0.000419728
         24950.12     0.000449769
         25074.81     0.000356190
         25199.50     0.000388730
         25324.19     0.000446271
         25448.88     0.000484504
         25573.57     0.000478227
         25698.25     0.000587501
         25822.94     0.000530154
         25947.63     0.000640377
         26072.32     0.000715315
         26197.01     0.000843987
         26321.70     0.000826702
         26446.38     0.001224726
         26571.07     0.001295418
         26695.76     0.001247242
         26820.45     0.001254305
         26945.14     0.001443282
         27069.83     0.001583204
         27194.51     0.002091289
         27319.20     0.002327859
         27443.89     0.003092647
         27568.58     0.002916604
         27693.27     0.003487796
         27817.96     0.007907987
         27942.64     0.008953452
         28067.33     0.012246728
         28192.02     0.016329050
         28316.71     0.017036915
         28441.40     0.032265663
         28566.08     0.033556461
         28690.77     0.014501810
         28815.46     0.007496715
         28940.15     0.005214036
         29064.84     0.005612731
         29189.53     0.004404008
         29314.21     0.003836751
         29438.90     0.002892584
         29563.59     0.002537817
         29688.28     0.002393991
         29812.97     0.001682356
         29937.66     0.001561254
         30062.34     0.001776367
         30187.03     0.002149969
         30311.72     0.002351075
         30436.41     0.001849979
         30561.10     0.001758575
         30685.79     0.001418501
         30810.47     0.001281574
         30935.16     0.001036301
         31059.85     0.001174733
         31184.54     0.001290739
         31309.23     0.000865608
         31433.92     0.000908859
         31558.60     0.001003057
         31683.29     0.000869460
         31807.98     0.000811122
         31932.67     0.000661090
         32057.36     0.000748441
         32182.04     0.000650898
         32306.73     0.000654832
         32431.42     0.000760473
         32556.11     0.000589781
         32680.80     0.000621326
         32805.49     0.000612848
         32930.17     0.000669479
         33054.86     0.000586070
         33179.55     0.000612803
         33304.24     0.000599593
         33428.93     0.000522397
         33553.62     0.000470057
         33678.30     0.000879765
         33802.99     0.000862993
         33927.68     0.000648111
         34052.37     0.000696599
         34177.06     0.000777282
         34301.75     0.001273483
         34426.43     0.002252638
         34551.12     0.002198994
         34675.81     0.001001447
         34800.50     0.001347229
         34925.19     0.000544176
         35049.88     0.000093738
         35174.56     0.000100649
         35299.25     0.000086739
         35423.94     0.000131624
         35548.63     0.000125127
         35673.32     0.000135824
         35798.00     0.000137152
         35922.69     0.000121886
         36047.38     0.000195434
         36172.07     0.000156427
         36296.76     0.000156449
         36421.45     0.000219816
         36546.13     0.000164455
         36670.82     0.000196224
         36795.51     0.000173813
         36920.20     0.000161864
         37044.89     0.000148967
         37169.58     0.000138449
         37294.26     0.000153309
         37418.95     0.000145635
         37543.64     0.000156056
         37668.33     0.000153748
         37793.02     0.000106910
         37917.71     0.000133736
         38042.39     0.000144474
         38167.08     0.000171365
         38291.77     0.000144487
         38416.46     0.000133090
         38541.15     0.000090333
         38665.84     0.000145355
         38790.52     0.000187801
         38915.21     0.000119968
         39039.90     0.000133181
         39164.59     0.000120712
         39289.28     0.000107757
         39413.97     0.000109639
         39538.65     0.000115735
         39663.34     0.000129173
         39788.03     0.000114510
         39912.72     0.000130665
         40037.41     0.000120255
         40162.09     0.000147169
         40286.78     0.000121100
         40411.47     0.000117928
         40536.16     0.000110553
         40660.85     0.000118908
         40785.54     0.000144430
         40910.22     0.000187714
         41034.91     0.000111074
         41159.60     0.000111840
         41284.29     0.000129418
         41408.98     0.000134263
         41533.67     0.000100804
         41658.35     0.000113599
         41783.04     0.000072277
         41907.73     0.000099543
         42032.42     0.000086662
         42157.11     0.000140751
         42281.80     0.000087366
         42406.48     0.000061132
         42531.17     0.000083137
         42655.86     0.000079097
         42780.55     0.000124885
         42905.24     0.000090597
         43029.93     0.000075822
         43154.61     0.000084613
         43279.30     0.000075906
         43403.99     0.000096846
         43528.68     0.000078711
         43653.37     0.000066316
         43778.05     0.000078849
         43902.74     0.000110918
         44027.43     0.000077869
         44152.12     0.000108084
         44276.81     0.000088916
         44401.50     0.000075221
         44526.18     0.000085230
         44650.87     0.000067863
         44775.56     0.000091124
         44900.25     0.000092477
         45024.94     0.000223560
         45149.63     0.000419214
         45274.31     0.000395630
         45399.00     0.000477258
         45523.69     0.000612877
         45648.38     0.001434281
         45773.07     0.002966553
         45897.76     0.005665362
         46022.44     0.009175539
         46147.13     0.009206057
         46271.82     0.003153712
         46396.51     0.001809031
         46521.20     0.001168981
         46645.89     0.000836447
         46770.57     0.000709765
         46895.26     0.000348777
         47019.95     0.000318289
         47144.64     0.000333853
         47269.33     0.000223370
         47394.01     0.000192331
         47518.70     0.000187490
         47643.39     0.000191167
         47768.08     0.000175809
         47892.77     0.000157977
         48017.46     0.000146849
         48142.14     0.000146702
         48266.83     0.000191050
         48391.52     0.000164641
         48516.21     0.000176635
         48640.90     0.000161273
         48765.59     0.000126515
         48890.27     0.000102513
         49014.96     0.000169933
         49139.65     0.000142626
         49264.34     0.000118240
         49389.03     0.000154646
         49513.72     0.000142813
         49638.40     0.000110253
         49763.09     0.000104849
         49887.78     0.000088382
         50012.47     0.000137044
         50137.16     0.000117864
         50261.85     0.000108521
         50386.53     0.000130024
         50511.22     0.000102047
         50635.91     0.000130700
         50760.60     0.000102082
         50885.29     0.000101578
         51009.98     0.000162559
         51134.66     0.000105123
         51259.35     0.000197906
         51384.04     0.000101997
         51508.73     0.000139166
         51633.42     0.000060443
         51758.10     0.000063294
         51882.79     0.000056280
         52007.48     0.000083172
         52132.17     0.000070274
         52256.86     0.000065562
         52381.55     0.000059775
         52506.23     0.000089808
         52630.92     0.000058562
         52755.61     0.000086656
         52880.30     0.000080384
         53004.99     0.000084470
         53129.68     0.000062000
         53254.36     0.000092438
         53379.05     0.000082598
         53503.74     0.000096329
         53628.43     0.000092758
         53753.12     0.000058839
         53877.81     0.000069316
         54002.49     0.000081489
         54127.18     0.000078471
         54251.87     0.000067846
         54376.56     0.000046882
         54501.25     0.000065866
         54625.94     0.000067950
         54750.62     0.000071566
         54875.31     0.000080330
