FASENS
POLYTEC und GAIN_PHASE Messungen
Modenprofilaufnahme
5.5.1992
17:1
tf
2
um/V
Ampl
ZE, Abgriff: optisch
in Stahltr. eingekl.
Si-Membran+ZnO-Schicht
M7 - 2/3
    30000
    50000
     5000
    55000
   10.0352
 0.000128
    290.0
MLIN
 9.5
   50
 1000000
+1.00000000E-003
          5000.00     0.002186209
          5124.69     0.002435446
          5249.38     0.002553731
          5374.06     0.002459824
          5498.75     0.002757251
          5623.44     0.002992570
          5748.13     0.003202170
          5872.82     0.003392637
          5997.51     0.004010618
          6122.19     0.004146278
          6246.88     0.004756212
          6371.57     0.005458772
          6496.26     0.006194711
          6620.95     0.007413566
          6745.64     0.009706497
          6870.32     0.013409376
          6995.01     0.023336172
          7119.70     0.061351299
          7244.39     0.141012192
          7369.08     0.076982498
          7493.77     0.021490097
          7618.45     0.013395190
          7743.14     0.009739399
          7867.83     0.007630110
          7992.52     0.006646633
          8117.21     0.005781054
          8241.90     0.005480707
          8366.58     0.004562676
          8491.27     0.004500508
          8615.96     0.003696293
          8740.65     0.003672123
          8865.34     0.003204316
          8990.02     0.003040165
          9114.71     0.003157616
          9239.40     0.002804697
          9364.09     0.002481878
          9488.78     0.002419084
          9613.47     0.002264619
          9738.15     0.002347827
          9862.84     0.002100229
          9987.53     0.002205551
         10112.22     0.002028167
         10236.91     0.001929238
         10361.60     0.001870573
         10486.28     0.001818314
         10610.97     0.001771480
         10735.66     0.001909107
         10860.35     0.001642972
         10985.04     0.001548544
         11109.73     0.001403168
         11234.41     0.001624584
         11359.10     0.002365142
         11483.79     0.001950219
         11608.48     0.001808897
         11733.17     0.001760170
         11857.86     0.001589268
         11982.54     0.001686573
         12107.23     0.001607850
         12231.92     0.001588672
         12356.61     0.001500010
         12481.30     0.001453131
         12605.99     0.001407385
         12730.67     0.001549631
         12855.36     0.001466632
         12980.05     0.001439288
         13104.74     0.001643255
         13229.43     0.001465723
         13354.11     0.001617983
         13478.80     0.001575187
         13603.49     0.001584411
         13728.18     0.001488209
         13852.87     0.001558140
         13977.56     0.001793772
         14102.24     0.001752883
         14226.93     0.001859441
         14351.62     0.002120852
         14476.31     0.002153248
         14601.00     0.002594650
         14725.69     0.002024233
         14850.37     0.002793014
         14975.06     0.003914475
         15099.75     0.010247588
         15224.44     0.019608736
         15349.13     0.007394493
         15473.82     0.007407188
         15598.50     0.002828807
         15723.19     0.001166806
         15847.88     0.000501297
         15972.57     0.000408541
         16097.26     0.000210764
         16221.95     0.000199771
         16346.63     0.000200378
         16471.32     0.000302073
         16596.01     0.000311427
         16720.70     0.000370674
         16845.39     0.000365164
         16970.07     0.000418436
         17094.76     0.000384837
         17219.45     0.000411350
         17344.14     0.000430200
         17468.83     0.000504486
         17593.52     0.000401169
         17718.20     0.000610501
         17842.89     0.000636280
         17967.58     0.000533633
         18092.27     0.000566691
         18216.96     0.000702411
         18341.65     0.000623122
         18466.33     0.000463657
         18591.02     0.000631541
         18715.71     0.000567921
         18840.40     0.000616327
         18965.09     0.000440024
         19089.78     0.000561349
         19214.46     0.000581332
         19339.15     0.000493161
         19463.84     0.000520363
         19588.53     0.000490576
         19713.22     0.000497527
         19837.91     0.000586964
         19962.59     0.000488631
         20087.28     0.000541933
         20211.97     0.000473339
         20336.66     0.000513174
         20461.35     0.000590384
         20586.03     0.000569671
         20710.72     0.000569128
         20835.41     0.000753671
         20960.10     0.000694945
         21084.79     0.000545993
         21209.48     0.000572503
         21334.16     0.000606462
         21458.85     0.000684358
         21583.54     0.000669740
         21708.23     0.000671066
         21832.92     0.000681616
         21957.61     0.000546239
         22082.29     0.000531696
         22206.98     0.000636406
         22331.67     0.000668041
         22456.36     0.000891857
         22581.05     0.000641562
         22705.74     0.000637330
         22830.42     0.000580773
         22955.11     0.000754885
         23079.80     0.000609703
         23204.49     0.000640549
         23329.18     0.000621147
         23453.87     0.000633307
         23578.55     0.000666469
         23703.24     0.000751451
         23827.93     0.000816360
         23952.62     0.000990912
         24077.31     0.000711612
         24202.00     0.000624917
         24326.68     0.000601530
         24451.37     0.000666291
         24576.06     0.000692174
         24700.75     0.000722267
         24825.44     0.000774093
         24950.12     0.000763729
         25074.81     0.000786752
         25199.50     0.000761896
         25324.19     0.000848234
         25448.88     0.000837870
         25573.57     0.000836216
         25698.25     0.000920288
         25822.94     0.000967257
         25947.63     0.000918046
         26072.32     0.001110882
         26197.01     0.001116887
         26321.70     0.001072079
         26446.38     0.001216307
         26571.07     0.001264811
         26695.76     0.001439497
         26820.45     0.001661047
         26945.14     0.001810178
         27069.83     0.002145201
         27194.51     0.002412438
         27319.20     0.002654791
         27443.89     0.002961129
         27568.58     0.003755361
         27693.27     0.005735159
         27817.96     0.006473422
         27942.64     0.003548354
         28067.33     0.006951392
         28192.02     0.010365605
         28316.71     0.009915709
         28441.40     0.017636776
         28566.08     0.020424843
         28690.77     0.008489370
         28815.46     0.004516780
         28940.15     0.002918571
         29064.84     0.003121495
         29189.53     0.002272964
         29314.21     0.001805738
         29438.90     0.001247093
         29563.59     0.000816561
         29688.28     0.000623770
         29812.97     0.000473335
         29937.66     0.000382375
         30062.34     0.000369150
         30187.03     0.000652730
         30311.72     0.000459839
         30436.41     0.000407320
         30561.10     0.000265129
         30685.79     0.000341039
         30810.47     0.000232264
         30935.16     0.000240969
         31059.85     0.000142386
         31184.54     0.000199208
         31309.23     0.000164811
         31433.92     0.000142135
         31558.60     0.000103145
         31683.29     0.000149669
         31807.98     0.000101457
         31932.67     0.000112577
         32057.36     0.000125358
         32182.04     0.000086145
         32306.73     0.000123659
         32431.42     0.000128839
         32556.11     0.000061455
         32680.80     0.000084703
         32805.49     0.000145417
         32930.17     0.000141107
         33054.86     0.000159817
         33179.55     0.000137292
         33304.24     0.000232296
         33428.93     0.000148758
         33553.62     0.000161875
         33678.30     0.000244819
         33802.99     0.000362843
         33927.68     0.000311840
         34052.37     0.000300117
         34177.06     0.000438359
         34301.75     0.000643112
         34426.43     0.001846880
         34551.12     0.001915589
         34675.81     0.001054466
         34800.50     0.001795754
         34925.19     0.000964798
         35049.88     0.000407152
         35174.56     0.000251368
         35299.25     0.000194924
         35423.94     0.000122519
         35548.63     0.000095608
         35673.32     0.000116354
         35798.00     0.000078567
         35922.69     0.000091136
         36047.38     0.000096648
         36172.07     0.000086590
         36296.76     0.000098966
         36421.45     0.000099435
         36546.13     0.000092822
         36670.82     0.000084392
         36795.51     0.000118306
         36920.20     0.000135932
         37044.89     0.000144068
         37169.58     0.000112500
         37294.26     0.000168052
         37418.95     0.000197969
         37543.64     0.000139898
         37668.33     0.000103851
         37793.02     0.000133192
         37917.71     0.000113883
         38042.39     0.000109756
         38167.08     0.000154218
         38291.77     0.000167998
         38416.46     0.000209277
         38541.15     0.000166947
         38665.84     0.000189483
         38790.52     0.000197005
         38915.21     0.000182418
         39039.90     0.000174919
         39164.59     0.000178983
         39289.28     0.000162017
         39413.97     0.000218092
         39538.65     0.000129148
         39663.34     0.000212766
         39788.03     0.000222433
         39912.72     0.000194684
         40037.41     0.000226187
         40162.09     0.000198673
         40286.78     0.000182282
         40411.47     0.000189831
         40536.16     0.000203280
         40660.85     0.000389528
         40785.54     0.000266053
         40910.22     0.000229932
         41034.91     0.000180263
         41159.60     0.000268225
         41284.29     0.000250284
         41408.98     0.000264481
         41533.67     0.000229351
         41658.35     0.000318184
         41783.04     0.000261880
         41907.73     0.000246387
         42032.42     0.000363663
         42157.11     0.000358101
         42281.80     0.000323955
         42406.48     0.000323009
         42531.17     0.000333227
         42655.86     0.000371195
         42780.55     0.000384286
         42905.24     0.000358962
         43029.93     0.000359148
         43154.61     0.000534348
         43279.30     0.000420015
         43403.99     0.000625275
         43528.68     0.000464238
         43653.37     0.000442170
         43778.05     0.000463746
         43902.74     0.000650823
         44027.43     0.000906751
         44152.12     0.000660606
         44276.81     0.000748880
         44401.50     0.000686824
         44526.18     0.000854582
         44650.87     0.000937082
         44775.56     0.001035124
         44900.25     0.001300693
         45024.94     0.001419649
         45149.63     0.001683488
         45274.31     0.002545625
         45399.00     0.003596604
         45523.69     0.003585339
         45648.38     0.005619884
         45773.07     0.009810090
         45897.76     0.015950680
         46022.44     0.029317856
         46147.13     0.029157877
         46271.82     0.010894537
         46396.51     0.006415844
         46521.20     0.004829824
         46645.89     0.003118902
         46770.57     0.002557278
         46895.26     0.002217919
         47019.95     0.001667097
         47144.64     0.001502529
         47269.33     0.001129016
         47394.01     0.001148179
         47518.70     0.000883140
         47643.39     0.000652909
         47768.08     0.000483416
         47892.77     0.000402104
         48017.46     0.000515163
         48142.14     0.000320930
         48266.83     0.000445157
         48391.52     0.000244938
         48516.21     0.000305761
         48640.90     0.000277828
         48765.59     0.000224235
         48890.27     0.000197794
         49014.96     0.000209309
         49139.65     0.000225961
         49264.34     0.000166211
         49389.03     0.000239644
         49513.72     0.000166146
         49638.40     0.000150051
         49763.09     0.000207435
         49887.78     0.000164039
         50012.47     0.000212943
         50137.16     0.000159144
         50261.85     0.000128394
         50386.53     0.000126792
         50511.22     0.000149142
         50635.91     0.000174262
         50760.60     0.000077081
         50885.29     0.000081564
         51009.98     0.000083641
         51134.66     0.000097108
         51259.35     0.000099205
         51384.04     0.000072523
         51508.73     0.000096925
         51633.42     0.000072574
         51758.10     0.000113097
         51882.79     0.000071140
         52007.48     0.000102409
         52132.17     0.000090593
         52256.86     0.000083867
         52381.55     0.000069215
         52506.23     0.000087221
         52630.92     0.000056522
         52755.61     0.000055484
         52880.30     0.000069236
         53004.99     0.000071668
         53129.68     0.000063160
         53254.36     0.000067293
         53379.05     0.000074319
         53503.74     0.000076638
         53628.43     0.000040497
         53753.12     0.000039581
         53877.81     0.000036255
         54002.49     0.000051491
         54127.18     0.000047611
         54251.87     0.000062872
         54376.56     0.000050842
         54501.25     0.000057416
         54625.94     0.000053236
         54750.62     0.000070156
         54875.31     0.000039438
