FASENS
POLYTEC und GAIN_PHASE Messungen
Modenprofilaufnahme
5.5.1992
17:1
tf
2
um/V
Ampl
ZE, Abgriff: optisch
in Stahltr. eingekl.
Si-Membran+ZnO-Schicht
M7 - 2/3
    30000
    50000
     5000
    55000
   10.0352
 0.000128
    290.0
MLIN
 9.5
   50
 1000000
+4.00000000E-002
          5000.00     0.007483900
          5124.69     0.008163571
          5249.38     0.008645415
          5374.06     0.008868814
          5498.75     0.009160280
          5623.44     0.009851575
          5748.13     0.011701226
          5872.82     0.012672901
          5997.51     0.013411164
          6122.19     0.015528679
          6246.88     0.016353846
          6371.57     0.018083572
          6496.26     0.021133184
          6620.95     0.026202202
          6745.64     0.032341003
          6870.32     0.046982765
          6995.01     0.076785088
          7119.70     0.205968857
          7244.39     0.429321289
          7369.08     0.225940704
          7493.77     0.064772606
          7618.45     0.042171478
          7743.14     0.029083014
          7867.83     0.022943497
          7992.52     0.019526243
          8117.21     0.016587734
          8241.90     0.013751864
          8366.58     0.011996627
          8491.27     0.010777950
          8615.96     0.009583116
          8740.65     0.009159565
          8865.34     0.008746028
          8990.02     0.007677495
          9114.71     0.006686330
          9239.40     0.006584466
          9364.09     0.006594419
          9488.78     0.005383193
          9613.47     0.005428910
          9738.15     0.004936516
          9862.84     0.004485488
          9987.53     0.004436195
         10112.22     0.004244089
         10236.91     0.003746599
         10361.60     0.003520787
         10486.28     0.003519475
         10610.97     0.003149152
         10735.66     0.003169626
         10860.35     0.003002852
         10985.04     0.002457380
         11109.73     0.002150446
         11234.41     0.003781319
         11359.10     0.005896032
         11483.79     0.004244089
         11608.48     0.003888488
         11733.17     0.003202319
         11857.86     0.003061205
         11982.54     0.002707630
         12107.23     0.002710909
         12231.92     0.003024250
         12356.61     0.003047734
         12481.30     0.002312571
         12605.99     0.002425909
         12730.67     0.002313405
         12855.36     0.002068400
         12980.05     0.002490610
         13104.74     0.002526462
         13229.43     0.002093613
         13354.11     0.002099454
         13478.80     0.002135873
         13603.49     0.002061695
         13728.18     0.001962662
         13852.87     0.001931980
         13977.56     0.001879960
         14102.24     0.001867712
         14226.93     0.001830667
         14351.62     0.001990169
         14476.31     0.002372056
         14601.00     0.002353400
         14725.69     0.002219915
         14850.37     0.002664477
         14975.06     0.003330261
         15099.75     0.007527888
         15224.44     0.014883280
         15349.13     0.003595501
         15473.82     0.006978571
         15598.50     0.002613842
         15723.19     0.000916056
         15847.88     0.000524282
         15972.57     0.000299718
         16097.26     0.000252977
         16221.95     0.000205582
         16346.63     0.000178184
         16471.32     0.000198543
         16596.01     0.000284445
         16720.70     0.000298865
         16845.39     0.000288859
         16970.07     0.000304598
         17094.76     0.000281915
         17219.45     0.000210464
         17344.14     0.000222897
         17468.83     0.000338301
         17593.52     0.000335015
         17718.20     0.000307437
         17842.89     0.000215838
         17967.58     0.000266515
         18092.27     0.000189791
         18216.96     0.000290733
         18341.65     0.000238080
         18466.33     0.000234399
         18591.02     0.000225630
         18715.71     0.000196312
         18840.40     0.000173857
         18965.09     0.000200639
         19089.78     0.000164749
         19214.46     0.000154531
         19339.15     0.000193235
         19463.84     0.000136891
         19588.53     0.000136936
         19713.22     0.000175135
         19837.91     0.000175484
         19962.59     0.000272557
         20087.28     0.000286270
         20211.97     0.000229644
         20336.66     0.000309769
         20461.35     0.000329781
         20586.03     0.000300307
         20710.72     0.000298515
         20835.41     0.000160804
         20960.10     0.000131128
         21084.79     0.000189606
         21209.48     0.000140361
         21334.16     0.000186807
         21458.85     0.000166681
         21583.54     0.000130290
         21708.23     0.000222951
         21832.92     0.000240983
         21957.61     0.000263948
         22082.29     0.000251774
         22206.98     0.000401169
         22331.67     0.000546433
         22456.36     0.000697359
         22581.05     0.000153150
         22705.74     0.000174221
         22830.42     0.000246555
         22955.11     0.000277922
         23079.80     0.000276152
         23204.49     0.000347659
         23329.18     0.000307627
         23453.87     0.000332192
         23578.55     0.000329576
         23703.24     0.000409983
         23827.93     0.000427388
         23952.62     0.000461277
         24077.31     0.000486240
         24202.00     0.000513852
         24326.68     0.000675224
         24451.37     0.000781208
         24576.06     0.000938341
         24700.75     0.000578918
         24825.44     0.000566252
         24950.12     0.000662766
         25074.81     0.000693820
         25199.50     0.000676014
         25324.19     0.000741154
         25448.88     0.000851698
         25573.57     0.000844643
         25698.25     0.000884429
         25822.94     0.001067594
         25947.63     0.001150474
         26072.32     0.001494780
         26197.01     0.001585260
         26321.70     0.001622170
         26446.38     0.001709402
         26571.07     0.001983374
         26695.76     0.002303511
         26820.45     0.002434880
         26945.14     0.002707183
         27069.83     0.003144383
         27194.51     0.003628492
         27319.20     0.004002154
         27443.89     0.004774988
         27568.58     0.005265296
         27693.27     0.006000698
         27817.96     0.009265423
         27942.64     0.011243105
         28067.33     0.017158985
         28192.02     0.024627924
         28316.71     0.024808168
         28441.40     0.046788216
         28566.08     0.049497604
         28690.77     0.020718336
         28815.46     0.012336135
         28940.15     0.008416295
         29064.84     0.008622646
         29189.53     0.006338239
         29314.21     0.005843759
         29438.90     0.004308045
         29563.59     0.003692657
         29688.28     0.003275245
         29812.97     0.002653301
         29937.66     0.002616227
         30062.34     0.002397358
         30187.03     0.003205180
         30311.72     0.003587186
         30436.41     0.003045887
         30561.10     0.003038526
         30685.79     0.002439201
         30810.47     0.002352417
         30935.16     0.002150834
         31059.85     0.002294391
         31184.54     0.001932874
         31309.23     0.001970589
         31433.92     0.001659960
         31558.60     0.001742423
         31683.29     0.001527101
         31807.98     0.001274332
         31932.67     0.001327962
         32057.36     0.001327321
         32182.04     0.001042113
         32306.73     0.000962570
         32431.42     0.000920124
         32556.11     0.000931285
         32680.80     0.000920817
         32805.49     0.000926383
         32930.17     0.000899278
         33054.86     0.000795521
         33179.55     0.000930935
         33304.24     0.000819653
         33428.93     0.000851236
         33553.62     0.000919968
         33678.30     0.000838883
         33802.99     0.000885122
         33927.68     0.000881627
         34052.37     0.000835806
         34177.06     0.000756808
         34301.75     0.001072481
         34426.43     0.001313791
         34551.12     0.001241535
         34675.81     0.000893429
         34800.50     0.000881270
         34925.19     0.000214139
         35049.88     0.000165250
         35174.56     0.000223009
         35299.25     0.000293285
         35423.94     0.000332724
         35548.63     0.000312429
         35673.32     0.000295926
         35798.00     0.000304300
         35922.69     0.000457015
         36047.38     0.000331167
         36172.07     0.000276241
         36296.76     0.000240147
         36421.45     0.000304490
         36546.13     0.000250813
         36670.82     0.000299465
         36795.51     0.000316489
         36920.20     0.000236418
         37044.89     0.000274941
         37169.58     0.000294454
         37294.26     0.000396874
         37418.95     0.000337668
         37543.64     0.000231907
         37668.33     0.000264268
         37793.02     0.000253867
         37917.71     0.000247672
         38042.39     0.000197312
         38167.08     0.000184195
         38291.77     0.000168139
         38416.46     0.000167031
         38541.15     0.000164412
         38665.84     0.000171667
         38790.52     0.000172982
         38915.21     0.000299320
         39039.90     0.000204995
         39164.59     0.000232870
         39289.28     0.000310726
         39413.97     0.000266254
         39538.65     0.000223257
         39663.34     0.000190577
         39788.03     0.000238765
         39912.72     0.000164662
         40037.41     0.000209652
         40162.09     0.000155214
         40286.78     0.000183593
         40411.47     0.000154695
         40536.16     0.000175564
         40660.85     0.000160716
         40785.54     0.000116947
         40910.22     0.000161152
         41034.91     0.000158934
         41159.60     0.000173004
         41284.29     0.000111318
         41408.98     0.000122681
         41533.67     0.000131696
         41658.35     0.000116251
         41783.04     0.000138307
         41907.73     0.000109849
         42032.42     0.000117246
         42157.11     0.000103768
         42281.80     0.000079012
         42406.48     0.000086159
         42531.17     0.000111420
         42655.86     0.000098633
         42780.55     0.000073384
         42905.24     0.000070176
         43029.93     0.000063724
         43154.61     0.000053490
         43279.30     0.000092627
         43403.99     0.000087148
         43528.68     0.000092110
         43653.37     0.000096443
         43778.05     0.000093495
         43902.74     0.000074876
         44027.43     0.000077925
         44152.12     0.000068955
         44276.81     0.000081616
         44401.50     0.000100325
         44526.18     0.000095133
         44650.87     0.000116016
         44775.56     0.000164887
         44900.25     0.000097147
         45024.94     0.000135645
         45149.63     0.000236562
         45274.31     0.000642322
         45399.00     0.001076132
         45523.69     0.001532853
         45648.38     0.003025830
         45773.07     0.004703462
         45897.76     0.010771632
         46022.44     0.018494368
         46147.13     0.018458843
         46271.82     0.006951869
         46396.51     0.004453480
         46521.20     0.002930105
         46645.89     0.002178401
         46770.57     0.001693934
         46895.26     0.001350597
         47019.95     0.001252338
         47144.64     0.001182780
         47269.33     0.001002595
         47394.01     0.000659153
         47518.70     0.000921190
         47643.39     0.000554785
         47768.08     0.000722051
         47892.77     0.000476420
         48017.46     0.000447620
         48142.14     0.000578620
         48266.83     0.000431009
         48391.52     0.000385068
         48516.21     0.000324052
         48640.90     0.000298601
         48765.59     0.000272900
         48890.27     0.000286262
         49014.96     0.000290632
         49139.65     0.000285693
         49264.34     0.000340518
         49389.03     0.000260212
         49513.72     0.000268150
         49638.40     0.000250440
         49763.09     0.000291735
         49887.78     0.000303745
         50012.47     0.000296470
         50137.16     0.000218850
         50261.85     0.000217889
         50386.53     0.000188114
         50511.22     0.000224767
         50635.91     0.000241311
         50760.60     0.000187470
         50885.29     0.000318263
         51009.98     0.000200894
         51134.66     0.000195323
         51259.35     0.000259861
         51384.04     0.000251319
         51508.73     0.000217959
         51633.42     0.000152230
         51758.10     0.000238262
         51882.79     0.000172509
         52007.48     0.000203358
         52132.17     0.000244785
         52256.86     0.000170831
         52381.55     0.000171550
         52506.23     0.000163766
         52630.92     0.000139816
         52755.61     0.000178482
         52880.30     0.000193812
         53004.99     0.000199135
         53129.68     0.000200940
         53254.36     0.000173042
         53379.05     0.000166962
         53503.74     0.000228297
         53628.43     0.000193020
         53753.12     0.000165341
         53877.81     0.000196109
         54002.49     0.000151176
         54127.18     0.000171075
         54251.87     0.000158800
         54376.56     0.000133608
         54501.25     0.000191957
         54625.94     0.000180429
         54750.62     0.000157876
         54875.31     0.000145996
